# Energy[eV]	Flux[ph/s/100mA]	Power[W/100mA]	Resolution	Resolution_Filtered	Harmonic
2.056000E+04 6.525486E+12 2.149534E-02 2.163649E-04 2.180525E-04 1.000000E+00
6.168000E+04 7.233417E+08 7.148213E-06 1.780527E-04 1.818384E-04 3.000000E+00
8.224000E+04 2.520834E+07 3.321521E-07 1.734561E-04 1.838117E-04 4.000000E+00
1.028000E+05 4.768307E+05 7.853577E-09 1.355349E-04 1.737276E-04 5.000000E+00
1.439200E+05 4.511631E+02 1.040310E-11 1.222374E-04 1.833981E-04 7.000000E+00
1.644800E+05 2.118543E+01 5.582900E-13 1.220276E-04 1.679736E-04 8.000000E+00
1.850400E+05 4.931572E-01 1.462046E-14 7.740519E-05 1.734571E-04 9.000000E+00
