# Energy[eV]	Flux[ph/s/100mA]	Power[W/100mA]	Resolution	Resolution_Filtered	Harmonic
9.550286E+03 6.501999E+11 9.950084E-04 1.352118E-04 1.329829E-04 1.000000E+00
2.865086E+04 2.958088E+08 1.357891E-06 4.830714E-05 4.682107E-05 3.000000E+00
3.820114E+04 4.991753E+05 3.055225E-09 4.807382E-05 4.667717E-05 4.000000E+00
4.775143E+04 9.025677E+02 6.905237E-12 4.867473E-05 4.687407E-05 5.000000E+00
6.685200E+04 1.338676E-01 1.433843E-15 4.848653E-05 4.731332E-05 7.000000E+00
7.640229E+04 4.063449E-03 4.974077E-17 4.798170E-05 4.625001E-05 8.000000E+00
8.595258E+04 7.720253E-05 1.063168E-18 4.806132E-05 4.582428E-05 9.000000E+00
