#Energy[eV]	Flux[ph/s/0.1%bw/100mA] 
1000.00	3.191632E+12 
2000.00	4.595724E+12 
3000.00	5.395669E+12 
4000.00	5.884466E+12 
5000.00	6.199329E+12 
6000.00	6.409943E+12 
7000.00	6.553612E+12 
8000.00	6.651354E+12 
9000.00	6.715716E+12 
10000.00	6.754658E+12 
11000.00	6.773532E+12 
12000.00	6.776136E+12 
13000.00	6.765306E+12 
14000.00	6.743224E+12 
15000.00	6.711633E+12 
16000.00	6.671952E+12 
17000.00	6.625350E+12 
18000.00	6.572810E+12 
19000.00	6.515172E+12 
20000.00	6.453145E+12 
21000.00	6.387355E+12 
22000.00	6.318331E+12 
23000.00	6.246544E+12 
24000.00	6.172407E+12 
25000.00	6.096278E+12 
26000.00	6.018480E+12 
27000.00	5.939296E+12 
28000.00	5.858982E+12 
29000.00	5.777759E+12 
30000.00	5.695834E+12 
31000.00	5.613378E+12 
32000.00	5.530563E+12 
33000.00	5.447531E+12 
34000.00	5.364415E+12 
35000.00	5.281331E+12 
36000.00	5.198386E+12 
37000.00	5.115668E+12 
38000.00	5.033272E+12 
39000.00	4.951272E+12 
40000.00	4.869739E+12 
41000.00	4.788734E+12 
42000.00	4.708316E+12 
43000.00	4.628533E+12 
44000.00	4.549429E+12 
45000.00	4.471048E+12 
46000.00	4.393423E+12 
47000.00	4.316585E+12 
48000.00	4.240564E+12 
49000.00	4.165388E+12 
50000.00	4.091073E+12 
51000.00	4.017643E+12 
52000.00	3.945110E+12 
53000.00	3.873491E+12 
54000.00	3.802799E+12 
55000.00	3.733042E+12 
56000.00	3.664227E+12 
57000.00	3.596361E+12 
58000.00	3.529450E+12 
59000.00	3.463497E+12 
60000.00	3.398502E+12 
61000.00	3.334467E+12 
62000.00	3.271392E+12 
63000.00	3.209275E+12 
64000.00	3.148113E+12 
65000.00	3.087905E+12 
66000.00	3.028645E+12 
67000.00	2.970329E+12 
68000.00	2.912951E+12 
69000.00	2.856507E+12 
70000.00	2.800988E+12 
71000.00	2.746389E+12 
72000.00	2.692701E+12 
73000.00	2.639917E+12 
74000.00	2.588028E+12 
75000.00	2.537026E+12 
76000.00	2.486900E+12 
77000.00	2.437643E+12 
78000.00	2.389247E+12 
79000.00	2.341699E+12 
80000.00	2.294990E+12 
81000.00	2.249111E+12 
82000.00	2.204051E+12 
83000.00	2.159800E+12 
84000.00	2.116347E+12 
85000.00	2.073683E+12 
86000.00	2.031796E+12 
87000.00	1.990676E+12 
88000.00	1.950311E+12 
89000.00	1.910693E+12 
90000.00	1.871809E+12 
91000.00	1.833650E+12 
92000.00	1.796204E+12 
93000.00	1.759460E+12 
94000.00	1.723410E+12 
95000.00	1.688041E+12 
96000.00	1.653342E+12 
97000.00	1.619304E+12 
98000.00	1.585916E+12 
99000.00	1.553168E+12 
100000.00	1.521050E+12 
101000.00	1.489551E+12 
102000.00	1.458660E+12 
103000.00	1.428369E+12 
104000.00	1.398667E+12 
105000.00	1.369543E+12 
106000.00	1.340990E+12 
107000.00	1.312996E+12 
108000.00	1.285552E+12 
109000.00	1.258649E+12 
110000.00	1.232277E+12 
111000.00	1.206426E+12 
112000.00	1.181089E+12 
113000.00	1.156255E+12 
114000.00	1.131916E+12 
115000.00	1.108064E+12 
116000.00	1.084688E+12 
117000.00	1.061780E+12 
118000.00	1.039333E+12 
119000.00	1.017338E+12 
120000.00	9.957868E+11 
121000.00	9.746709E+11 
122000.00	9.539821E+11 
123000.00	9.337121E+11 
124000.00	9.138549E+11 
125000.00	8.944009E+11 
126000.00	8.753435E+11 
127000.00	8.566754E+11 
128000.00	8.383884E+11 
129000.00	8.204765E+11 
130000.00	8.029316E+11 
131000.00	7.857469E+11 
132000.00	7.689165E+11 
133000.00	7.524324E+11 
134000.00	7.362884E+11 
135000.00	7.204780E+11 
136000.00	7.049948E+11 
137000.00	6.898329E+11 
138000.00	6.749848E+11 
139000.00	6.604456E+11 
140000.00	6.462087E+11 
141000.00	6.322683E+11 
142000.00	6.186189E+11 
143000.00	6.052539E+11 
144000.00	5.921682E+11 
145000.00	5.793576E+11 
146000.00	5.668141E+11 
147000.00	5.545342E+11 
148000.00	5.425120E+11 
149000.00	5.307426E+11 
150000.00	5.192211E+11 
151000.00	5.079423E+11 
152000.00	4.969011E+11 
153000.00	4.860928E+11 
154000.00	4.755135E+11 
155000.00	4.651578E+11 
156000.00	4.550220E+11 
157000.00	4.451004E+11 
158000.00	4.353893E+11 
159000.00	4.258841E+11 
160000.00	4.165813E+11 
161000.00	4.074769E+11 
162000.00	3.985657E+11 
163000.00	3.898447E+11 
164000.00	3.813095E+11 
165000.00	3.729570E+11 
166000.00	3.647825E+11 
167000.00	3.567830E+11 
168000.00	3.489548E+11 
169000.00	3.412941E+11 
170000.00	3.337979E+11 
171000.00	3.264624E+11 
172000.00	3.192847E+11 
173000.00	3.122612E+11 
174000.00	3.053886E+11 
175000.00	2.986639E+11 
176000.00	2.920842E+11 
177000.00	2.856463E+11 
178000.00	2.793472E+11 
179000.00	2.731845E+11 
180000.00	2.671547E+11 
181000.00	2.612547E+11 
182000.00	2.554827E+11 
183000.00	2.498361E+11 
184000.00	2.443115E+11 
185000.00	2.389066E+11 
186000.00	2.336190E+11 
187000.00	2.284463E+11 
188000.00	2.233858E+11 
189000.00	2.184352E+11 
190000.00	2.135925E+11 
191000.00	2.088549E+11 
192000.00	2.042208E+11 
193000.00	1.996875E+11 
194000.00	1.952531E+11 
195000.00	1.909152E+11 
196000.00	1.866719E+11 
197000.00	1.825215E+11 
198000.00	1.784618E+11 
199000.00	1.744908E+11 
200000.00	1.706069E+11 
201000.00	1.668075E+11 
202000.00	1.630919E+11 
203000.00	1.594572E+11 
204000.00	1.559025E+11 
205000.00	1.524255E+11 
206000.00	1.490250E+11 
207000.00	1.456993E+11 
208000.00	1.424463E+11 
209000.00	1.392651E+11 
210000.00	1.361536E+11 
211000.00	1.331107E+11 
212000.00	1.301349E+11 
213000.00	1.272244E+11 
214000.00	1.243781E+11 
215000.00	1.215947E+11 
216000.00	1.188726E+11 
217000.00	1.162105E+11 
218000.00	1.136072E+11 
219000.00	1.110614E+11 
220000.00	1.085718E+11 
221000.00	1.061372E+11 
222000.00	1.037566E+11 
223000.00	1.014286E+11 
224000.00	9.915197E+10 
225000.00	9.692597E+10 
226000.00	9.474919E+10 
227000.00	9.262061E+10 
228000.00	9.053919E+10 
229000.00	8.850406E+10 
230000.00	8.651416E+10 
231000.00	8.456835E+10 
232000.00	8.266563E+10 
233000.00	8.080528E+10 
234000.00	7.898632E+10 
235000.00	7.720770E+10 
236000.00	7.546871E+10 
237000.00	7.376845E+10 
238000.00	7.210590E+10 
239000.00	7.048041E+10 
240000.00	6.889118E+10 
241000.00	6.733727E+10 
242000.00	6.581809E+10 
243000.00	6.433288E+10 
244000.00	6.288075E+10 
245000.00	6.146097E+10 
246000.00	6.007278E+10 
247000.00	5.871558E+10 
248000.00	5.738891E+10 
249000.00	5.609171E+10 
250000.00	5.482372E+10 
251000.00	5.358402E+10 
252000.00	5.237207E+10 
253000.00	5.118721E+10 
254000.00	5.002885E+10 
255000.00	4.889630E+10 
256000.00	4.778923E+10 
257000.00	4.670690E+10 
258000.00	4.564899E+10 
259000.00	4.461459E+10 
260000.00	4.360348E+10 
261000.00	4.261500E+10 
262000.00	4.164879E+10 
263000.00	4.070421E+10 
264000.00	3.978104E+10 
265000.00	3.887829E+10 
266000.00	3.799617E+10 
267000.00	3.713350E+10 
268000.00	3.629051E+10 
269000.00	3.546634E+10 
270000.00	3.466072E+10 
271000.00	3.387330E+10 
272000.00	3.310357E+10 
273000.00	3.235113E+10 
274000.00	3.161567E+10 
275000.00	3.089681E+10 
276000.00	3.019399E+10 
277000.00	2.950721E+10 
278000.00	2.883570E+10 
279000.00	2.817956E+10 
280000.00	2.753804E+10 
281000.00	2.691107E+10 
282000.00	2.629823E+10 
283000.00	2.569931E+10 
284000.00	2.511377E+10 
285000.00	2.454155E+10 
286000.00	2.398231E+10 
287000.00	2.343570E+10 
288000.00	2.290142E+10 
289000.00	2.237916E+10 
290000.00	2.186870E+10 
291000.00	2.136987E+10 
292000.00	2.088223E+10 
293000.00	2.040566E+10 
294000.00	1.993988E+10 
295000.00	1.948476E+10 
296000.00	1.903982E+10 
297000.00	1.860511E+10 
298000.00	1.817999E+10 
299000.00	1.776471E+10 
300000.00	1.735875E+10 
301000.00	1.696214E+10 
302000.00	1.657436E+10 
303000.00	1.619545E+10 
304000.00	1.582506E+10 
305000.00	1.546315E+10 
306000.00	1.510949E+10 
307000.00	1.476381E+10 
308000.00	1.442602E+10 
309000.00	1.409587E+10 
310000.00	1.377321E+10 
311000.00	1.345782E+10 
312000.00	1.314978E+10 
313000.00	1.284859E+10 
314000.00	1.255432E+10 
315000.00	1.226672E+10 
316000.00	1.198565E+10 
317000.00	1.171094E+10 
318000.00	1.144251E+10 
319000.00	1.118024E+10 
320000.00	1.092388E+10 
321000.00	1.067346E+10 
322000.00	1.042866E+10 
323000.00	1.018947E+10 
324000.00	9.955757E+09 
325000.00	9.727275E+09 
326000.00	9.504066E+09 
327000.00	9.285868E+09 
328000.00	9.072743E+09 
329000.00	8.864399E+09 
330000.00	8.660867E+09 
331000.00	8.461914E+09 
332000.00	8.267628E+09 
333000.00	8.077612E+09 
334000.00	7.892073E+09 
335000.00	7.710642E+09 
336000.00	7.533536E+09 
337000.00	7.360357E+09 
338000.00	7.191117E+09 
339000.00	7.025792E+09 
340000.00	6.864224E+09 
341000.00	6.706350E+09 
342000.00	6.552049E+09 
343000.00	6.401395E+09 
344000.00	6.254070E+09 
345000.00	6.110133E+09 
346000.00	5.969482E+09 
347000.00	5.832119E+09 
348000.00	5.697809E+09 
349000.00	5.566652E+09 
350000.00	5.438447E+09 
351000.00	5.313210E+09 
352000.00	5.190799E+09 
353000.00	5.071249E+09 
354000.00	4.954422E+09 
355000.00	4.840262E+09 
356000.00	4.728702E+09 
357000.00	4.619752E+09 
358000.00	4.513247E+09 
359000.00	4.409235E+09 
360000.00	4.307531E+09 
361000.00	4.208197E+09 
362000.00	4.111121E+09 
363000.00	4.016324E+09 
364000.00	3.923603E+09 
365000.00	3.833110E+09 
366000.00	3.744660E+09 
367000.00	3.658278E+09 
368000.00	3.573834E+09 
369000.00	3.491358E+09 
370000.00	3.410731E+09 
371000.00	3.332019E+09 
372000.00	3.255018E+09 
373000.00	3.179852E+09 
374000.00	3.106413E+09 
375000.00	3.034663E+09 
376000.00	2.964580E+09 
377000.00	2.896070E+09 
378000.00	2.829161E+09 
379000.00	2.763774E+09 
380000.00	2.699862E+09 
381000.00	2.637462E+09 
382000.00	2.576490E+09 
383000.00	2.516949E+09 
384000.00	2.458744E+09 
385000.00	2.401880E+09 
386000.00	2.346311E+09 
387000.00	2.292043E+09 
388000.00	2.239018E+09 
389000.00	2.187251E+09 
390000.00	2.136638E+09 
391000.00	2.087160E+09 
392000.00	2.038875E+09 
393000.00	1.991677E+09 
394000.00	1.945593E+09 
395000.00	1.900551E+09 
396000.00	1.856555E+09 
397000.00	1.813529E+09 
398000.00	1.771570E+09 
399000.00	1.730532E+09 
400000.00	1.690466E+09 
401000.00	1.651273E+09 
402000.00	1.613035E+09 
403000.00	1.575650E+09 
404000.00	1.539156E+09 
405000.00	1.503479E+09 
406000.00	1.468623E+09 
407000.00	1.434581E+09 
408000.00	1.401334E+09 
409000.00	1.368847E+09 
410000.00	1.337081E+09 
411000.00	1.306082E+09 
412000.00	1.275816E+09 
413000.00	1.246218E+09 
414000.00	1.217307E+09 
415000.00	1.189065E+09 
416000.00	1.161505E+09 
417000.00	1.134536E+09 
418000.00	1.108219E+09 
419000.00	1.082491E+09 
420000.00	1.057390E+09 
421000.00	1.032832E+09 
422000.00	1.008862E+09 
423000.00	9.854543E+08 
424000.00	9.625695E+08 
425000.00	9.402276E+08 
426000.00	9.183931E+08 
427000.00	8.970740E+08 
428000.00	8.762199E+08 
429000.00	8.558990E+08 
430000.00	8.360067E+08 
431000.00	8.165852E+08 
432000.00	7.975939E+08 
433000.00	7.791046E+08 
434000.00	7.609827E+08 
435000.00	7.432886E+08 
436000.00	7.260353E+08 
437000.00	7.091742E+08 
438000.00	6.926629E+08 
439000.00	6.765702E+08 
440000.00	6.608657E+08 
441000.00	6.454746E+08 
442000.00	6.304759E+08 
443000.00	6.158338E+08 
444000.00	6.015001E+08 
445000.00	5.874882E+08 
446000.00	5.738639E+08 
447000.00	5.605137E+08 
448000.00	5.474502E+08 
449000.00	5.347438E+08 
450000.00	5.223043E+08 
451000.00	5.101144E+08 
452000.00	4.982745E+08 
453000.00	4.866943E+08 
454000.00	4.753355E+08 
455000.00	4.642873E+08 
456000.00	4.535108E+08 
457000.00	4.429165E+08 
458000.00	4.326192E+08 
459000.00	4.225681E+08 
460000.00	4.126956E+08 
461000.00	4.031070E+08 
462000.00	3.937435E+08 
463000.00	3.845258E+08 
464000.00	3.756195E+08 
465000.00	3.668623E+08 
466000.00	3.582862E+08 
467000.00	3.499910E+08 
468000.00	3.418134E+08 
469000.00	3.338363E+08 
470000.00	3.261056E+08 
471000.00	3.184768E+08 
472000.00	3.110622E+08 
473000.00	3.038567E+08 
474000.00	2.967120E+08 
475000.00	2.898552E+08 
476000.00	2.830829E+08 
477000.00	2.764620E+08 
478000.00	2.700631E+08 
479000.00	2.637336E+08 
480000.00	2.575928E+08 
481000.00	2.516081E+08 
482000.00	2.457062E+08 
483000.00	2.400118E+08 
484000.00	2.344118E+08 
485000.00	2.289209E+08 
486000.00	2.236453E+08 
487000.00	2.183656E+08 
488000.00	2.133302E+08 
489000.00	2.083409E+08 
490000.00	2.034668E+08 
491000.00	1.987623E+08 
492000.00	1.940666E+08 
493000.00	1.895995E+08 
494000.00	1.851337E+08 
495000.00	1.808266E+08 
496000.00	1.766291E+08 
497000.00	1.724748E+08 
498000.00	1.684960E+08 
499000.00	1.645343E+08 
500000.00	1.607185E+08 
501000.00	1.569709E+08 
502000.00	1.532841E+08 
503000.00	1.497501E+08 
504000.00	1.462105E+08 
505000.00	1.428329E+08 
506000.00	1.394767E+08 
507000.00	1.362352E+08 
508000.00	1.330675E+08 
509000.00	1.299375E+08 
510000.00	1.269517E+08 
511000.00	1.239418E+08 
512000.00	1.210975E+08 
513000.00	1.182231E+08 
514000.00	1.154960E+08 
515000.00	1.127892E+08 
516000.00	1.101464E+08 
517000.00	1.076028E+08 
518000.00	1.050687E+08 
519000.00	1.026636E+08 
520000.00	1.002084E+08 
521000.00	9.792340E+07 
522000.00	9.559473E+07 
523000.00	9.340230E+07 
524000.00	9.118343E+07 
525000.00	8.908311E+07 
526000.00	8.700290E+07 
527000.00	8.497104E+07 
528000.00	8.299920E+07 
529000.00	8.103541E+07 
530000.00	7.917474E+07 
531000.00	7.730103E+07 
532000.00	7.552777E+07 
533000.00	7.374372E+07 
534000.00	7.204049E+07 
535000.00	7.034539E+07 
536000.00	6.871788E+07 
537000.00	6.710138E+07 
538000.00	6.554264E+07 
539000.00	6.401903E+07 
540000.00	6.252288E+07 
541000.00	6.107301E+07 
542000.00	5.962914E+07 
543000.00	5.825778E+07 
544000.00	5.688979E+07 
545000.00	5.557225E+07 
546000.00	5.426980E+07 
547000.00	5.300848E+07 
548000.00	5.177321E+07 
549000.00	5.056094E+07 
550000.00	4.938681E+07 
551000.00	4.823952E+07 
552000.00	4.711542E+07 
553000.00	4.601457E+07 
554000.00	4.494230E+07 
555000.00	4.389513E+07 
556000.00	4.287500E+07 
557000.00	4.187972E+07 
558000.00	4.089977E+07 
559000.00	3.995142E+07 
560000.00	3.901417E+07 
561000.00	3.811180E+07 
562000.00	3.723082E+07 
563000.00	3.635332E+07 
564000.00	3.551435E+07 
565000.00	3.468501E+07 
566000.00	3.388275E+07 
567000.00	3.309449E+07 
568000.00	3.231820E+07 
569000.00	3.157499E+07 
570000.00	3.083635E+07 
571000.00	3.012061E+07 
572000.00	2.942059E+07 
573000.00	2.874206E+07 
574000.00	2.806664E+07 
575000.00	2.741936E+07 
576000.00	2.678133E+07 
577000.00	2.616188E+07 
578000.00	2.555481E+07 
579000.00	2.495782E+07 
580000.00	2.438351E+07 
581000.00	2.381808E+07 
582000.00	2.326466E+07 
583000.00	2.272305E+07 
584000.00	2.219999E+07 
585000.00	2.168373E+07 
586000.00	2.118255E+07 
587000.00	2.069628E+07 
588000.00	2.020961E+07 
589000.00	1.974793E+07 
590000.00	1.929021E+07 
591000.00	1.884412E+07 
592000.00	1.840830E+07 
593000.00	1.798041E+07 
594000.00	1.756800E+07 
595000.00	1.716617E+07 
596000.00	1.676505E+07 
597000.00	1.637636E+07 
598000.00	1.600707E+07 
599000.00	1.563366E+07 
600000.00	1.527180E+07 
